Folder: Battery/Battery

File: cuh-eff.csv
Channel,CyCle,Step,Raw Step ID,Status,Start Voltage(V),End Voltage(V),Start Current(mA),End Current(mA),CapaCity(mAh),Endure Time(min),Relative Time(min),Absolute Time,Discharge_Capacity(mAh),Charge_Capacity(mAh),Discharge_Capacity(mAh),Net Engy_DChg(Wh),Engy_Chg(Wh),Engy_DChg(Wh)
4,1,1,1,Rest,2.1087,2.1490,0.000,0.000,0.000,60.000,60.000,03/07/2023 08:59:43,0.000,0.000,0.000,0.000000,0.000000,0.000000
4,2,4,4,CC_DChg,0.1500,-0.0328,-1.999,-1.999,5.997,180.000,596.890,03/07/2023 15:56:37,5.997,0.000,5.997,0.000195,0.000000,0.000195
4,4,7,5,CC_Chg,0.0182,0.0300,1.999,1.999,2.999,90.000,866.890,03/07/2023 21:56:37,-2.999,2.999,0.000,-0.000090,0.000090,0.000000
4,5,10,6,CC_DChg,-0.0229,-0.0337,-1.999,-1.999,2.999,90.000,1136.890,03/08/2023 02:26:37,2.999,0.000,2.999,0.000101,0.000000,0.000101
4,7,13,5,CC_Chg,0.0198,0.0316,1.998,1.999,2.998,90.000,1406.890,03/08/2023 06:56:37,-2.998,2.998,0.000,-0.000095,0.000095,0.000000
4,8,16,6,CC_DChg,-0.0244,-0.0362,-1.999,-1.999,2.999,90.000,1676.890,03/08/2023 11:26:37,2.999,0.000,2.999,0.000107,0.000000,0.000107
4,10,19,5,CC_Chg,0.0217,0.0334,1.998,1.999,2.998,90.000,1946.890,03/08/2023 15:56:37,-2.998,2.998,0.000,-0.000102,0.000102,0.000000
4,11,22,6,CC_DChg,-0.0257,-0.0378,-1.999,-1.999,2.999,90.000,2216.890,03/08/2023 20:26:37,2.999,0.000,2.999,0.000112,0.000000,0.000112
4,13,25,5,CC_Chg,0.0229,0.0344,1.999,1.999,2.999,90.000,2486.890,03/09/2023 00:56:37,-2.999,2.999,0.000,-0.000104,0.000104,0.000000
4,14,28,6,CC_DChg,-0.0269,-0.0399,-1.999,-1.999,2.999,90.000,2756.890,03/09/2023 05:26:37,2.999,0.000,2.999,0.000118,0.000000,0.000118
4,16,31,5,CC_Chg,0.0248,0.0368,1.999,1.999,2.998,90.000,3026.890,03/09/2023 09:56:37,-2.998,2.998,0.000,-0.000110,0.000110,0.000000
4,17,34,6,CC_DChg,-0.0316,-0.0449,-1.999,-1.999,2.999,90.000,3296.890,03/09/2023 14:26:37,2.999,0.000,2.999,0.000130,0.000000,0.000130
4,19,37,5,CC_Chg,0.0294,0.0406,1.999,1.999,2.998,90.000,3566.890,03/09/2023 18:56:37,-2.998,2.998,0.000,-0.000123,0.000123,0.000000
4,20,40,6,CC_DChg,-0.0319,-0.0468,-1.999,-1.999,2.999,90.000,3836.890,03/09/2023 23:26:37,2.999,0.000,2.999,0.000133,0.000000,0.000133
4,22,43,5,CC_Chg,0.0322,0.0427,1.997,1.999,2.998,90.000,4106.890,03/10/2023 03:56:37,-2.998,2.998,0.000,-0.000130,0.000130,0.000000
4,23,46,6,CC_DChg,-0.0347,-0.0514,-1.999,-1.999,2.999,90.000,4376.890,03/10/2023 08:26:37,2.999,0.000,2.999,0.000143,0.000000,0.000143
4,25,49,5,CC_Chg,0.0353,0.0452,1.998,1.999,2.998,90.000,4646.890,03/10/2023 12:56:37,-2.998,2.998,0.000,-0.000138,0.000138,0.000000
4,26,52,6,CC_DChg,-0.0372,-0.0564,-1.999,-1.999,2.999,90.000,4916.890,03/10/2023 17:26:38,2.999,0.000,2.999,0.000154,0.000000,0.000154
4,28,55,5,CC_Chg,0.0384,0.0468,1.999,1.999,2.999,90.000,5186.890,03/10/2023 21:56:38,-2.999,2.999,0.000,-0.000145,0.000145,0.000000
4,29,58,6,CC_DChg,-0.0375,-0.0561,-1.999,-1.999,2.999,90.000,5456.890,03/11/2023 02:26:38,2.999,0.000,2.999,0.000153,0.000000,0.000153
4,31,61,5,CC_Chg,0.0399,0.0480,1.999,1.999,2.999,90.000,5726.890,03/11/2023 06:56:38,-2.999,2.999,0.000,-0.000148,0.000148,0.000000
4,32,64,6,CC_DChg,-0.0387,-0.0601,-1.998,-1.999,2.999,90.000,5996.890,03/11/2023 11:26:38,2.999,0.000,2.999,0.000157,0.000000,0.000157
4,34,67,5,CC_Chg,0.0430,0.0502,1.998,1.999,2.998,90.000,6266.890,03/11/2023 15:56:38,-2.998,2.998,0.000,-0.000154,0.000154,0.000000
4,35,70,6,CC_DChg,-0.0406,-0.0632,-1.999,-1.999,2.999,90.000,6536.890,03/11/2023 20:26:38,2.999,0.000,2.999,0.000163,0.000000,0.000163
4,37,73,5,CC_Chg,0.0455,0.0505,1.999,1.999,2.999,90.000,6806.890,03/12/2023 00:56:38,-2.999,2.999,0.000,-0.000157,0.000157,0.000000
4,38,76,6,CC_DChg,-0.0412,-0.0644,-1.999,-1.999,2.999,90.000,7076.890,03/12/2023 05:26:38,2.999,0.000,2.999,0.000164,0.000000,0.000164
4,40,79,5,CC_Chg,0.0465,0.0520,1.999,1.999,2.999,90.000,7346.890,03/12/2023 09:56:38,-2.999,2.999,0.000,-0.000158,0.000158,0.000000
4,41,82,6,CC_DChg,-0.0406,-0.0654,-1.998,-1.999,2.998,90.000,7616.890,03/12/2023 14:26:38,2.998,0.000,2.998,0.000163,0.000000,0.000163
4,43,85,5,CC_Chg,0.0446,0.0530,1.999,1.999,2.998,90.000,7886.890,03/12/2023 18:56:38,-2.998,2.998,0.000,-0.000157,0.000157,0.000000
4,44,88,6,CC_DChg,-0.0424,-0.0626,-1.999,-1.999,2.999,90.000,8156.890,03/12/2023 23:26:38,2.999,0.000,2.999,0.000160,0.000000,0.000160
4,46,91,5,CC_Chg,0.0446,0.0551,1.999,1.999,2.998,90.000,8426.890,03/13/2023 03:56:38,-2.998,2.998,0.000,-0.000155,0.000155,0.000000
4,47,94,6,CC_DChg,-0.0486,-0.0638,-1.998,-1.999,2.999,90.000,8696.890,03/13/2023 08:26:38,2.999,0.000,2.999,0.000170,0.000000,0.000170
4,49,97,5,CC_Chg,0.0430,0.0595,1.998,1.999,2.998,90.000,8966.890,03/13/2023 12:56:38,-2.998,2.998,0.000,-0.000158,0.000158,0.000000
4,50,100,6,CC_DChg,-0.0505,-0.0607,-1.999,-1.999,2.999,90.000,9236.890,03/13/2023 17:26:38,2.999,0.000,2.999,0.000162,0.000000,0.000162
4,52,103,5,CC_Chg,0.0424,0.0623,1.998,1.999,2.998,90.000,9506.890,03/13/2023 21:56:38,-2.998,2.998,0.000,-0.000155,0.000155,0.000000
4,53,106,6,CC_DChg,-0.0471,-0.0548,-1.999,-1.999,2.999,90.000,9776.890,03/14/2023 02:26:38,2.999,0.000,2.999,0.000153,0.000000,0.000153
4,55,109,5,CC_Chg,0.0372,0.0551,1.999,1.999,2.998,90.000,10046.890,03/14/2023 06:56:39,-2.998,2.998,0.000,-0.000141,0.000141,0.000000
4,56,112,6,CC_DChg,-0.0443,-0.0530,-1.999,-1.999,2.999,90.000,10316.890,03/14/2023 11:26:39,2.999,0.000,2.999,0.000144,0.000000,0.000144
4,58,115,5,CC_Chg,0.0347,0.0592,1.998,1.998,2.998,90.000,10586.890,03/14/2023 15:56:39,-2.998,2.998,0.000,-0.000137,0.000137,0.000000
4,59,118,6,CC_DChg,-0.0471,-0.0489,-1.999,-1.999,2.999,90.000,10856.890,03/14/2023 20:26:39,2.999,0.000,2.999,0.000137,0.000000,0.000137
4,61,121,5,CC_Chg,0.0328,0.0635,1.999,1.999,2.998,90.000,11126.890,03/15/2023 00:56:39,-2.998,2.998,0.000,-0.000131,0.000131,0.000000
4,62,124,6,CC_DChg,-0.0477,-0.0477,-1.998,-1.999,2.999,90.000,11396.890,03/15/2023 05:26:39,2.999,0.000,2.999,0.000134,0.000000,0.000134
4,64,127,5,CC_Chg,0.0313,0.0610,1.999,1.999,2.998,90.000,11666.890,03/15/2023 09:56:39,-2.998,2.998,0.000,-0.000122,0.000122,0.000000
4,65,130,6,CC_DChg,-0.0468,-0.0458,-1.999,-1.999,2.999,90.000,11936.890,03/15/2023 14:26:39,2.999,0.000,2.999,0.000130,0.000000,0.000130
4,67,133,5,CC_Chg,0.0310,0.0595,1.997,1.999,2.998,90.000,12206.890,03/15/2023 18:56:39,-2.998,2.998,0.000,-0.000122,0.000122,0.000000
4,68,136,6,CC_DChg,-0.0443,-0.0443,-1.998,-1.999,2.999,90.000,12476.890,03/15/2023 23:26:39,2.999,0.000,2.999,0.000126,0.000000,0.000126
4,70,139,5,CC_Chg,0.0313,0.0629,1.999,1.999,2.999,90.000,12746.890,03/16/2023 03:56:39,-2.999,2.999,0.000,-0.000123,0.000123,0.000000
4,71,142,6,CC_DChg,-0.0496,-0.0461,-1.999,-1.999,2.999,90.000,13016.890,03/16/2023 08:26:39,2.999,0.000,2.999,0.000131,0.000000,0.000131
4,73,145,5,CC_Chg,0.0325,0.0672,1.999,1.999,2.999,90.000,13286.890,03/16/2023 12:56:39,-2.999,2.999,0.000,-0.000126,0.000126,0.000000
4,74,148,6,CC_DChg,-0.0514,-0.0455,-1.999,-1.999,2.999,90.000,13556.890,03/16/2023 17:26:39,2.999,0.000,2.999,0.000130,0.000000,0.000130
4,76,151,5,CC_Chg,0.0316,0.0675,1.999,1.999,2.999,90.000,13826.890,03/16/2023 21:56:39,-2.999,2.999,0.000,-0.000124,0.000124,0.000000
4,77,154,6,CC_DChg,-0.0465,-0.0449,-1.999,-1.999,2.999,90.000,14096.890,03/17/2023 02:26:39,2.999,0.000,2.999,0.000129,0.000000,0.000129
4,79,157,5,CC_Chg,0.0303,0.0585,1.999,1.999,2.999,90.000,14366.890,03/17/2023 06:56:39,-2.999,2.999,0.000,-0.000118,0.000118,0.000000
4,80,160,6,CC_DChg,-0.0393,-0.0421,-1.999,-1.999,2.999,90.000,14636.890,03/17/2023 11:26:39,2.999,0.000,2.999,0.000122,0.000000,0.000122
4,82,163,5,CC_Chg,0.0291,0.0533,1.999,1.999,2.998,90.000,14906.890,03/17/2023 15:56:39,-2.998,2.998,0.000,-0.000113,0.000113,0.000000
4,83,166,6,CC_DChg,-0.0415,-0.0418,-1.999,-1.999,2.999,90.000,15176.890,03/17/2023 20:26:40,2.999,0.000,2.999,0.000120,0.000000,0.000120
4,85,169,5,CC_Chg,0.0282,0.0542,1.999,1.999,2.999,90.000,15446.890,03/18/2023 00:56:40,-2.999,2.999,0.000,-0.000110,0.000110,0.000000
4,86,172,6,CC_DChg,-0.0396,-0.0403,-1.999,-1.999,2.999,90.000,15716.890,03/18/2023 05:26:40,2.999,0.000,2.999,0.000117,0.000000,0.000117
4,88,175,5,CC_Chg,0.0272,0.0536,1.997,1.999,2.998,90.000,15986.890,03/18/2023 09:56:40,-2.998,2.998,0.000,-0.000108,0.000108,0.000000
4,89,178,6,CC_DChg,-0.0387,-0.0406,-1.999,-1.999,2.999,90.000,16256.890,03/18/2023 14:26:40,2.999,0.000,2.999,0.000118,0.000000,0.000118
4,91,181,5,CC_Chg,0.0275,0.0520,1.998,1.999,2.998,90.000,16526.891,03/18/2023 18:56:40,-2.998,2.998,0.000,-0.000108,0.000108,0.000000
4,92,184,6,CC_DChg,-0.0409,-0.0403,-1.999,-1.999,2.999,90.000,16796.891,03/18/2023 23:26:40,2.999,0.000,2.999,0.000117,0.000000,0.000117
4,94,187,5,CC_Chg,0.0272,0.0505,1.998,1.999,2.998,90.000,17066.891,03/19/2023 03:56:40,-2.998,2.998,0.000,-0.000108,0.000108,0.000000
4,95,190,6,CC_DChg,-0.0396,-0.0399,-1.999,-1.999,2.999,90.000,17336.891,03/19/2023 08:26:40,2.999,0.000,2.999,0.000117,0.000000,0.000117
4,97,193,5,CC_Chg,0.0272,0.0542,1.999,1.998,2.998,90.000,17606.891,03/19/2023 12:56:40,-2.998,2.998,0.000,-0.000109,0.000109,0.000000
4,98,196,6,CC_DChg,-0.0390,-0.0403,-1.999,-1.999,2.999,90.000,17876.891,03/19/2023 17:26:40,2.999,0.000,2.999,0.000118,0.000000,0.000118
4,100,199,5,CC_Chg,0.0266,0.0477,1.998,1.999,2.998,90.000,18146.891,03/19/2023 21:56:40,-2.998,2.998,0.000,-0.000106,0.000106,0.000000
4,101,202,6,CC_DChg,-0.0365,-0.0393,-1.999,-1.999,2.999,90.000,18416.891,03/20/2023 02:26:40,2.999,0.000,2.999,0.000115,0.000000,0.000115
4,103,205,8,CC_Chg,0.0263,0.5000,1.999,1.999,4.893,146.850,18743.740,03/20/2023 06:56:40,-4.893,4.893,0.000,-0.000335,0.000335,0.000000

File: cuhA-eff.csv
Record Index,Status,JumpTo,Cycle,Step,Cur(mA),Voltage(V),CapaCity(mAh),Energy(Wh),Relative Time(min),Absolute Time
1,Rest,1,1,1,0.0000,2.1087,0.0000,0.0000000,0.000,03/07/2023 08:59:43
81,CC_DChg,2,1,2,-1.999,-0.0325,0.866,0.000029,86.000,03/07/2023 10:25:43
161,CC_Chg,3,2,3,1.999,0.0279,0.067,0.000002,242.000,03/07/2023 13:01:43
241,CC_Chg,3,2,3,1.999,0.0319,5.397,0.000157,402.000,03/07/2023 15:41:43
321,CC_DChg,4,2,4,-1.999,-0.0322,1.599,0.000051,464.890,03/07/2023 16:44:37
401,CC_Chg,5,3,5,1.999,0.0300,0.800,0.000024,620.890,03/07/2023 19:20:37
481,CC_DChg,6,3,6,-1.999,-0.0331,2.999,0.000099,776.890,03/07/2023 21:56:37
561,CC_DChg,9,4,8,-1.999,-0.0337,2.066,0.000069,928.890,03/08/2023 00:28:37
641,CC_DChg,12,5,10,-1.999,-0.0341,1.133,0.000038,1080.890,03/08/2023 03:00:37
721,CC_DChg,15,6,12,-1.999,-0.0337,0.200,0.000007,1232.890,03/08/2023 05:32:37
801,CC_Chg,17,7,13,1.999,0.0316,2.399,0.000076,1388.890,03/08/2023 08:08:37
881,CC_Chg,20,8,15,1.999,0.0325,1.466,0.000048,1540.890,03/08/2023 10:40:37
961,CC_Chg,23,9,17,1.999,0.0337,0.533,0.000018,1692.890,03/08/2023 13:12:37
1041,CC_DChg,24,9,18,-1.999,-0.0372,2.732,0.000099,1848.890,03/08/2023 15:48:37
1121,CC_DChg,27,10,20,-1.999,-0.0375,1.799,0.000066,2000.890,03/08/2023 18:20:37
1201,CC_DChg,30,11,22,-1.999,-0.0365,0.866,0.000032,2152.890,03/08/2023 20:52:37
1281,CC_DChg,33,12,24,-1.999,-0.0260,0.000,0.000000,2306.890,03/08/2023 23:26:37
1361,CC_Chg,35,13,25,1.999,0.0344,2.132,0.000075,2460.890,03/09/2023 02:00:37
1441,CC_Chg,38,14,27,1.999,0.0359,1.199,0.000043,2612.890,03/09/2023 04:32:37
1521,CC_Chg,41,15,29,1.999,0.0375,0.267,0.000010,2764.890,03/09/2023 07:04:37
1601,CC_DChg,42,15,30,-1.999,-0.0399,2.465,0.000097,2920.890,03/09/2023 09:40:37
1681,CC_DChg,45,16,32,-1.999,-0.0403,1.533,0.000060,3072.890,03/09/2023 12:12:37
1761,CC_DChg,48,17,34,-1.999,-0.0427,0.600,0.000025,3224.890,03/09/2023 14:44:37
1841,CC_Chg,50,18,35,1.999,0.0403,2.799,0.000114,3380.890,03/09/2023 17:20:37
1921,CC_Chg,53,19,37,1.999,0.0403,1.866,0.000077,3532.890,03/09/2023 19:52:37
2001,CC_Chg,56,20,39,1.999,0.0421,0.933,0.000040,3684.890,03/09/2023 22:24:37
2081,CC_Chg,59,21,41,1.999,0.0412,0.007,0.000000,3837.110,03/10/2023 00:56:50
2161,CC_DChg,60,21,42,-1.999,-0.0477,2.199,0.000099,3992.890,03/10/2023 03:32:37
2241,CC_DChg,63,22,44,-1.999,-0.0465,1.266,0.000057,4144.890,03/10/2023 06:04:37
2321,CC_DChg,66,23,46,-1.999,-0.0452,0.333,0.000015,4296.890,03/10/2023 08:36:37
2401,CC_Chg,68,24,47,1.999,0.0440,2.532,0.000116,4452.890,03/10/2023 11:12:37
2481,CC_Chg,71,25,49,1.999,0.0455,1.599,0.000075,4604.890,03/10/2023 13:44:37
2561,CC_Chg,74,26,51,1.999,0.0489,0.666,0.000033,4756.890,03/10/2023 16:16:37
2641,CC_DChg,75,26,52,-1.999,-0.0561,2.865,0.000147,4912.890,03/10/2023 18:52:37
2721,CC_DChg,78,27,54,-1.999,-0.0520,1.932,0.000094,5064.890,03/10/2023 21:24:37
2801,CC_DChg,81,28,56,-1.999,-0.0483,1.000,0.000047,5216.890,03/10/2023 23:56:37
2881,CC_DChg,84,29,58,-1.999,-0.0477,0.067,0.000003,5368.890,03/11/2023 02:28:38
2961,CC_Chg,86,30,59,1.999,0.0465,2.266,0.000111,5524.890,03/11/2023 05:04:38
3041,CC_Chg,89,31,61,1.999,0.0486,1.333,0.000069,5676.890,03/11/2023 07:36:38
3121,CC_Chg,92,32,63,1.999,0.0536,0.466,0.000025,5830.890,03/11/2023 10:10:38
3201,CC_DChg,93,32,64,-1.999,-0.0585,2.665,0.000137,5986.890,03/11/2023 12:46:38
3281,CC_DChg,96,33,66,-1.999,-0.0536,1.732,0.000087,6138.890,03/11/2023 15:18:38
3361,CC_DChg,99,34,68,-1.999,-0.0505,0.800,0.000040,6290.890,03/11/2023 17:50:38
3441,CC_Chg,101,35,69,1.999,0.0508,2.998,0.000158,6446.890,03/11/2023 20:26:38
3521,CC_Chg,104,36,71,1.999,0.0499,2.066,0.000113,6598.890,03/11/2023 22:58:38
3601,CC_Chg,107,37,73,1.999,0.0527,1.199,0.000068,6752.890,03/12/2023 01:32:38
3681,CC_Chg,110,38,75,1.999,0.0592,0.267,0.000016,6904.890,03/12/2023 04:04:38
3761,CC_DChg,111,38,76,-1.999,-0.0616,2.465,0.000130,7060.890,03/12/2023 06:40:38
3841,CC_DChg,114,39,78,-1.999,-0.0517,1.533,0.000076,7212.890,03/12/2023 09:12:38
3921,CC_DChg,117,40,80,-1.999,-0.0480,0.600,0.000029,7364.890,03/12/2023 11:44:38
4001,CC_Chg,119,41,81,1.999,0.0505,2.799,0.000152,7520.890,03/12/2023 14:20:38
4081,CC_Chg,122,42,83,1.999,0.0499,1.932,0.000107,7674.890,03/12/2023 16:54:38
4161,CC_Chg,125,43,85,1.999,0.0530,1.066,0.000060,7828.890,03/12/2023 19:28:38
4241,CC_Chg,128,44,87,1.999,0.0589,0.200,0.000012,7982.890,03/12/2023 22:02:38
4321,CC_DChg,129,44,88,-1.999,-0.0579,2.465,0.000128,8140.890,03/13/2023 00:40:38
4401,CC_DChg,132,45,90,-1.999,-0.0520,1.599,0.000079,8294.890,03/13/2023 03:14:38
4481,CC_DChg,135,46,92,-1.999,-0.0465,0.733,0.000035,8448.890,03/13/2023 05:48:38
4561,CC_Chg,137,47,93,1.999,0.0641,2.932,0.000157,8604.890,03/13/2023 08:24:38
4641,CC_Chg,140,48,95,1.999,0.0502,2.066,0.000110,8758.890,03/13/2023 10:58:38
4721,CC_Chg,143,49,97,1.999,0.0520,1.199,0.000066,8912.890,03/13/2023 13:32:38
4801,CC_Chg,146,50,99,1.999,0.0579,0.333,0.000019,9066.890,03/13/2023 16:06:38
4881,CC_DChg,147,50,100,-1.999,-0.0585,2.599,0.000138,9224.890,03/13/2023 18:44:38
4961,CC_DChg,150,51,102,-1.999,-0.0523,1.732,0.000087,9378.890,03/13/2023 21:18:38
5041,CC_DChg,153,52,104,-1.999,-0.0502,0.866,0.000044,9532.890,03/13/2023 23:52:38
5121,CC_DChg,156,53,106,-1.999,-0.0471,0.000,0.000000,9686.890,03/14/2023 02:26:38
5201,CC_Chg,158,54,107,1.999,0.0465,2.199,0.000108,9842.890,03/14/2023 05:02:38
5281,CC_Chg,161,55,109,1.999,0.0461,1.333,0.000064,9996.890,03/14/2023 07:36:38
5361,CC_Chg,164,56,111,1.999,0.0496,0.466,0.000023,10150.890,03/14/2023 10:10:38
5441,CC_DChg,165,56,112,-1.999,-0.0508,2.732,0.000130,10308.890,03/14/2023 12:48:38
5521,CC_DChg,168,57,114,-1.999,-0.0465,1.866,0.000087,10462.890,03/14/2023 15:22:38
5601,CC_DChg,171,58,116,-1.999,-0.0452,0.999,0.000046,10616.890,03/14/2023 17:56:39
5681,CC_DChg,174,59,118,-1.999,-0.0480,0.133,0.000007,10770.890,03/14/2023 20:30:39
5761,CC_Chg,176,60,119,1.999,0.0415,2.332,0.000101,10926.890,03/14/2023 23:06:39
5841,CC_Chg,179,61,121,1.999,0.0418,1.466,0.000064,11080.890,03/15/2023 01:40:39
5921,CC_Chg,182,62,123,1.999,0.0430,0.600,0.000026,11234.890,03/15/2023 04:14:39
6001,CC_DChg,183,62,124,-1.999,-0.0468,2.799,0.000124,11390.890,03/15/2023 06:50:39
6081,CC_DChg,186,63,126,-1.999,-0.0421,1.866,0.000077,11542.890,03/15/2023 09:22:39
6161,CC_DChg,189,64,128,-1.999,-0.0412,0.999,0.000042,11696.890,03/15/2023 11:56:39
6241,CC_DChg,192,65,130,-1.999,-0.0477,0.067,0.000003,11848.890,03/15/2023 14:28:39
6321,CC_Chg,194,66,131,1.999,0.0390,2.265,0.000092,12004.890,03/15/2023 17:04:39
6401,CC_Chg,197,67,133,1.999,0.0396,1.333,0.000055,12156.890,03/15/2023 19:36:39
6481,CC_Chg,200,68,135,1.999,0.0415,0.400,0.000017,12308.890,03/15/2023 22:08:39
6561,CC_DChg,201,68,136,-1.999,-0.0434,2.665,0.000112,12466.890,03/16/2023 00:46:39
6641,CC_DChg,204,69,138,-1.999,-0.0427,1.732,0.000074,12618.890,03/16/2023 03:18:39
6721,CC_DChg,207,70,140,-1.999,-0.0421,0.866,0.000037,12772.890,03/16/2023 05:52:39
6801,CC_Chg,209,71,141,1.999,0.0657,2.998,0.000125,12926.890,03/16/2023 08:26:39
6881,CC_Chg,212,72,143,1.999,0.0403,2.132,0.000088,13080.890,03/16/2023 11:00:39
6961,CC_Chg,215,73,145,1.999,0.0409,1.199,0.000051,13232.890,03/16/2023 13:32:39
7041,CC_Chg,218,74,147,1.999,0.0427,0.267,0.000011,13384.890,03/16/2023 16:04:39
7121,CC_DChg,219,74,148,-1.999,-0.0440,2.465,0.000107,13540.890,03/16/2023 18:40:39
7201,CC_DChg,222,75,150,-1.999,-0.0421,1.533,0.000066,13692.890,03/16/2023 21:12:39
7281,CC_DChg,225,76,152,-1.999,-0.0421,0.600,0.000027,13844.890,03/16/2023 23:44:39
7361,CC_Chg,227,77,153,1.999,0.0418,2.799,0.000113,14000.890,03/17/2023 02:20:39
7441,CC_Chg,230,78,155,1.999,0.0384,1.866,0.000075,14152.890,03/17/2023 04:52:39
7521,CC_Chg,233,79,157,1.999,0.0393,0.933,0.000037,14304.890,03/17/2023 07:24:39
7601,CC_Chg,236,80,159,1.999,0.0393,0.067,0.000003,14458.890,03/17/2023 09:58:39
7681,CC_DChg,237,80,160,-1.999,-0.0412,2.332,0.000094,14616.890,03/17/2023 12:36:39
7761,CC_DChg,240,81,162,-1.999,-0.0403,1.533,0.000062,14772.890,03/17/2023 15:12:39
7841,CC_DChg,243,82,164,-1.999,-0.0396,0.733,0.000030,14928.890,03/17/2023 17:48:39
7921,CC_Chg,245,83,165,1.999,0.0551,2.998,0.000113,15086.890,03/17/2023 20:26:39
8001,CC_Chg,248,84,167,1.999,0.0350,2.199,0.000081,15242.890,03/17/2023 23:02:39
8081,CC_Chg,251,85,169,1.999,0.0350,1.399,0.000052,15398.890,03/18/2023 01:38:39
8161,CC_Chg,254,86,171,1.999,0.0368,0.600,0.000022,15554.890,03/18/2023 04:14:40
8241,CC_DChg,255,86,172,-1.999,-0.0399,2.865,0.000111,15712.890,03/18/2023 06:52:40
8321,CC_DChg,2,87,174,-1.999,-0.0390,2.066,0.000079,15868.890,03/18/2023 09:28:40
8401,CC_DChg,5,88,176,-1.999,-0.0381,1.266,0.000049,16024.890,03/18/2023 12:04:40
8481,CC_DChg,8,89,178,-1.999,-0.0387,0.466,0.000019,16180.890,03/18/2023 14:40:40
8561,CC_Chg,10,90,179,1.998,0.0362,2.665,0.000095,16336.890,03/18/2023 17:16:40
8641,CC_Chg,13,91,181,1.999,0.0347,1.798,0.000065,16490.890,03/18/2023 19:50:40
8721,CC_Chg,16,92,183,1.999,0.0353,0.999,0.000036,16646.890,03/18/2023 22:26:40
8801,CC_Chg,19,93,185,1.999,0.0372,0.133,0.000005,16800.890,03/19/2023 01:00:40
8881,CC_DChg,20,93,186,-1.999,-0.0396,2.399,0.000095,16958.890,03/19/2023 03:38:40
8961,CC_DChg,23,94,188,-1.999,-0.0390,1.533,0.000060,17112.890,03/19/2023 06:12:40
9041,CC_DChg,26,95,190,-1.999,-0.0381,0.733,0.000029,17268.890,03/19/2023 08:48:40
9121,CC_Chg,28,96,191,1.999,0.0536,2.998,0.000108,17426.890,03/19/2023 11:26:40
9201,CC_Chg,31,97,193,1.999,0.0350,2.199,0.000078,17582.890,03/19/2023 14:02:40
9281,CC_Chg,34,98,195,1.998,0.0350,1.399,0.000050,17738.890,03/19/2023 16:38:40
9361,CC_Chg,37,99,197,1.998,0.0359,0.599,0.000022,17894.890,03/19/2023 19:14:40
9441,CC_DChg,38,99,198,-1.999,-0.0393,2.865,0.000111,18052.890,03/19/2023 21:52:40
9521,CC_DChg,41,100,200,-1.999,-0.0384,2.066,0.000079,18208.890,03/20/2023 00:28:40
9601,CC_DChg,44,101,202,-1.999,-0.0378,1.266,0.000048,18364.890,03/20/2023 03:04:40
9681,CC_DChg,47,102,204,-1.999,-0.0384,0.466,0.000019,18520.890,03/20/2023 05:40:40
9761,CC_Chg,49,103,205,1.999,0.0347,2.732,0.000093,18678.890,03/20/2023 08:18:40
9841,CC_Chg,49,103,205,1.999,0.3320,4.821,0.000306,18741.610,03/20/2023 09:21:23
9885,CC_Chg,49,103,205,1.999,0.5000,4.893,0.000335,18743.740,03/20/2023 09:23:31